accX[mg],accY[mg],accZ[mg],gyroX[mdps],gyroY[mdps],gyroZ[mdps]
-47.456838,83.380869,1167.648273,-39150.20647,1558.445216,-3747.144012
-516.355686,4.945545,1998.571212,-2119.94386,65890.147,-3546.608782
-244.850364,-57.766005,1998.571212,-42868.7026,286685.1648,11734.17574
516.416868,-192.631527,650.619585,47618.52276,286685.1648,40531.03477
338.968674,68.3199,-779.876757,13195.21813,174144.7937,9241.809314
527.643765,-26.71614,-1519.730289,-6079.082258,-107624.3932,5477.476568
1799.107695,-264.367422,-321.827517,-54310.66986,-286685.1648,-39820.5671
1806.673869,-495.492624,1998.571212,14535.93939,-286685.1648,-50059.32299
-281.325033,-43.000749,1998.571212,15870.93106,-131098.4742,19469.10604
-30.193317,-27.817416,1381.08168,50305.69484,29862.56054,3970.597554
-348.309126,-85.766967,1998.571212,-118533.5097,95855.83994,-18340.37918
243.443178,-676.050903,1998.571212,72398.94761,286685.1648,59152.16327
753.639876,186.350175,1224.986004,49262.91164,286685.1648,-20632.21038
648.600579,-137.618712,-166.833117,-2028.270612,286685.1648,4331.560968
611.942364,-49.169934,-1729.074699,17343.43261,40496.6573,8181.837384
1778.611725,17.875341,-1002.334509,-50924.48926,-286685.1648,-25233.06151
1998.20412,-442.610982,1998.571212,2704.360816,-286685.1648,-119163.7632
75.886074,90.579951,1998.571212,83606.00218,-193023.7532,44255.26047
170.555022,-26.532594,1141.35021,21531.75412,6852.575288,-2859.059422
-442.672164,38.493675,1998.571212,-44811.02954,231629.6498,-1294.884628
602.367381,-421.992648,1998.571212,93352.01435,286685.1648,41167.01793
1071.510957,-39.951846,510.747336,21044.73999,286685.1648,13498.88577
1143.858672,-48.313386,-1471.539267,60848.11836,158932.7641,11739.90532
1492.035237,-96.320862,-971.284644,-50935.94842,-250416.9361,-27221.22508
1604.579526,-293.77557,1509.35994,-40387.79532,-286685.1648,-53434.04443
821.16441,-875.575602,1998.571212,17160.08611,-286685.1648,-79767.18492
298.833282,12.44034,1096.095924,35815.59208,49434.79898,-8926.682524
-790.481637,940.724235,1998.571212,26075.30948,268671.3716,-56419.15457
1182.525696,235.153017,1998.571212,-79062.44682,286685.1648,-31174.6339
1732.857786,-134.926704,-758.095965,6359.83158,286685.1648,9774.660068
1998.20412,-177.754104,-1592.56746,-12977.49417,-192966.4575,1512.608592
1891.706652,-250.213986,732.776814,-101333.3165,-286685.1648,-46277.80151
979.340274,-58.255461,1998.571212,61650.25928,-286685.1648,27897.31528
-413.202834,-185.197914,1998.571212,-31140.25643,24218.92621,14174.97597
-891.31977,27.878598,1998.571212,93180.12701,112116.3823,7465.640134
505.434699,359.587008,1998.571212,-62372.18611,286685.1648,-36445.84566
1278.785376,-203.674878,464.503941,27983.25895,286685.1648,6709.335838
1218.33756,-142.24815,-1600.612893,73464.64912,92567.06217,-1100.078976
1387.91367,-262.175067,-579.617874,-74289.70835,-286685.1648,-9791.848802
1299.893166,-159.205761,1953.918549,6835.386554,-286685.1648,-58097.92092
-838.733841,-16.162245,1998.571212,-55307.61643,-230380.6018,18661.23555
-542.765916,77.344245,1771.229097,7305.21195,-10720.04044,3397.639754
-746.869068,300.546378,1998.571212,63191.51576,44083.37313,297.938056
184.586094,117.245106,1998.571212,-39218.96141,286685.1648,11109.65174
1202.287482,-293.77557,701.798328,55393.5601,286685.1648,35420.2512
1217.603376,-67.035078,-1791.113247,23055.82187,164759.745,-315.12679
1504.302228,-186.900813,-786.525201,8777.713496,-286685.1648,515.66202
1594.759815,-369.651447,1994.421033,-3833.087682,-286685.1648,-23537.10642
-371.058633,426.081645,1998.571212,7895.358484,-264597.6416,43871.37875
-373.00626,235.948383,1942.457121,28699.4562,26390.43627,10158.54179
-566.004879,28.908495,1942.151211,-32882.04814,84133.12335,14037.4661
-499.520439,0.428274,1998.571212,43871.37875,201532.1766,-12284.21523
530.325576,-113.217291,1998.571212,55227.40234,286685.1648,-7391.15562
1081.69776,-90.641133,-240.333093,30286.54931,286685.1648,1873.572006
1537.60563,-263.153979,-1649.905191,42593.68285,-27232.68423,1163.104334
1777.204539,-240.271911,-10.309167,-41516.52219,-286685.1648,38061.58665
137.730879,406.075131,1998.571212,-54935.19386,-286685.1648,-7780.766924
-852.336639,140.300523,1998.571212,9098.569864,-97763.78941,16363.67477
-337.204593,11.950884,1978.075242,-1340.721252,9264.727626,-1959.515676
-398.570139,319.329252,1998.571212,-12118.05747,262025.0611,-10622.63761
989.404713,-147.193695,1971.120888,40811.78409,286685.1648,2641.335458
1153.188927,-118.397367,-143.16588,49939.00185,286685.1648,-11017.97849
1140.799572,-257.045976,-1782.150084,41327.44611,18575.29188,-3535.149626
1356.924987,-246.379914,-483.297012,-8519.882486,-286685.1648,47326.31428
1402.913457,-3.538359,1997.408754,-82173.60768,-286685.1648,-3798.710214
-559.295253,99.492129,1998.571212,77595.67485,-233073.5035,5792.603358
-446.516433,83.809143,1787.758434,6623.392168,59026.11256,9597.04315
-719.785836,-26.777322,1998.571212,20420.21599,101001.001,-3151.2679
0.428274,123.954732,1998.571212,12347.24059,286685.1648,-18644.04681
1214.615655,-115.164918,1015.080759,-18025.25239,286685.1648,-8760.524762
1190.09187,-158.899851,-1424.877795,50179.64412,196610.4691,13447.31957
1193.752593,-230.023926,-1055.409894,-27490.51524,-225367.2211,7058.840096
1669.789341,-160.429401,705.336687,-44914.16194,-286685.1648,20546.26671
-72.470079,156.646314,1998.571212,-36417.19777,-286685.1648,11906.06308
-616.949091,253.935891,1998.571212,-27353.00537,-58493.2618,17016.84666
-137.006892,-48.74166,1279.21365,15481.31976,14919.82111,8032.868356
-758.279511,604.437372,1998.571212,-103.132404,173566.1064,-24677.29245
919.504278,15.305697,1998.571212,464.095818,286685.1648,-25112.74037
1183.749336,-217.583586,13.296888,-2692.90166,286685.1648,-1827.735382
1119.946707,-101.623302,-1986.68151,-1042.783196,65116.65397,15315.16199
1382.723397,-99.675675,-449.932428,-40313.31081,-286685.1648,-14822.41829
960.730749,-81.127332,1998.571212,36944.31894,-286685.1648,-37946.99509
-803.176902,156.034494,1998.571212,1243.318426,-184074.1524,9425.15581
-203.797242,-100.583208,1333.380114,22775.07255,-19268.57081,-19898.82439
-542.643552,48.619296,1998.571212,3603.904562,172477.4865,-22104.71192
963.422757,-105.773481,1998.571212,6737.983728,286685.1648,13212.40687
1231.022628,-159.939945,228.382209,-21806.77387,286685.1648,32354.92697
959.94558,24.462603,-1998.20412,49979.10889,69299.24591,24866.36852
1329.352299,-29.214405,-483.664104,-26906.09829,-286685.1648,-24849.17979
1050.341985,-477.01566,1998.571212,-53393.93738,-286685.1648,-44748.00418
-768.466314,-371.915181,1998.571212,-32165.85089,-183506.9242,-32417.95232
-217.70595,88.938234,1653.198822,48947.78485,-4394.586326,7116.135876
-721.43775,-18.670707,1998.571212,-5443.0991,-14163.51682,6577.555544
154.9944,389.719143,1998.571212,-19789.96241,286685.1648,-15349.53946
1287.870903,-124.617537,1022.463387,-6405.668204,286685.1648,-3621.093296
1211.750298,-98.146125,-1394.256204,23204.7909,248096.457,5024.839906
1317.391218,-243.076086,-1224.25182,23720.45292,-234563.1937,30171.95775
1621.108863,-141.146874,923.583078,-147347.5574,-286685.1648,-19715.4779
478.840923,-38.493675,1998.571212,41533.71092,-286685.1648,-13458.77872
-343.975401,-212.515677,1998.571212,-41980.61801,-45034.48308,11172.6771
-420.891372,12.13443,1998.571212,30091.74366,57782.79413,4841.49341
202.328874,173.665107,1998.571212,-12055.03211,286685.1648,-18787.28626
1245.787884,-36.841761,1410.601995,22975.60778,286685.1648,-8680.31067
1237.365162,-152.129043,-1425.489615,49772.84409,285917.4014,-5213.91598
1483.683894,-193.671621,-1320.572682,4646.687758,-263348.5936,32354.92697
1997.28639,-134.681976,866.245347,-100101.4572,-286685.1648,19881.63566
851.24556,-140.422887,1998.571212,-19984.76806,-286685.1648,-22935.50073
-339.091038,56.603547,1998.571212,13573.37028,-46942.43255,25267.43898
-382.346712,-77.833701,1998.571212,-8565.71911,88751.16322,-2142.862172
-198.372438,262.358613,1998.571212,13894.22665,286685.1648,-16569.93958
917.42409,-100.64439,1662.345531,-21394.24425,286685.1648,-17824.71716
1329.902937,-162.377028,-784.200285,13412.9421,285693.9478,2767.386174
1251.029142,-102.357486,-1532.537721,-5660.823064,-142666.4922,9671.527664
1587.438369,-50.934015,241.495551,-48879.02992,-286685.1648,2859.059422
904.188384,-244.054998,1998.571212,20196.76245,-286685.1648,-3174.186212
-583.88022,-87.347502,1998.571212,-40737.29958,-104507.5027,15996.98178
-484.337106,180.130005,1998.571212,55857.65592,67643.39787,-2841.870688
-93.210777,178.24356,1998.571212,-1862.11285,286685.1648,-11963.35886
1155.3201,-131.388345,1702.113831,13676.50269,286685.1648,-3580.98625
1173.195441,-99.308583,-704.908413,49663.9821,286685.1648,-1363.639564
1243.707696,-218.62368,-1727.738892,21440.08088,-110947.5484,7872.440172
1778.795271,-251.070534,153.903321,-13842.66045,-286685.1648,17927.84956
1049.301891,1.101276,1998.571212,75487.19015,-286685.1648,4199.780674
-404.300853,340.926498,1998.571212,-38055.85708,-160118.7868,38777.7839
-572.724702,240.883731,1998.571212,61266.37755,217500.5105,-21262.46396
790.247106,-48.252204,1998.571212,5632.175174,286685.1648,16982.46919
1429.150338,-174.215745,122.05809,40995.13059,286685.1648,-5282.670916
1116.224802,-193.426893,-1639.351296,36749.51329,17927.84956,-7076.02883
1131.530499,-157.625226,-371.364543,-33672.72991,-286685.1648,6285.347066
1554.685605,-114.981372,1807.275492,-66692.28792,-286685.1648,-8153.189494
-119.804553,543.80601,1998.571212,71384.8123,-278371.5471,40817.51367
-165.487113,354.774024,1998.571212,69940.95865,222405.0292,-8731.876872
840.569301,100.827936,1998.571212,-681.819782,286685.1648,-55187.2953
1095.36174,-154.872036,213.372225,42358.77015,286685.1648,-36039.04562
818.666145,-229.177575,-1409.439537,24069.95718,121495.7015,-6818.19782
965.003292,-267.110415,-816.412608,-1495.419858,-262552.1823,24201.73747
1676.498967,-179.518185,909.613188,-97677.84574,-286685.1648,25594.02493
298.16028,519.588135,1998.571212,62544.07345,-286685.1648,49749.92577
-232.471206,108.761202,1998.571212,17412.18754,81434.49211,-23370.94866
-141.269238,-479.330379,1998.571212,-188474.4683,286685.1648,-89713.73232
1580.912289,-454.867776,1344.423465,-60131.92111,286685.1648,46770.54521
1492.891785,42.032034,-1591.099092,-35059.28778,182578.7325,-45807.97611
1801.055322,12.74625,-1228.585545,-20752.53152,-285923.1309,9597.04315
1998.20412,45.509211,1896.213726,52121.97107,-286685.1648,-55897.76297
-155.850948,-896.683392,1998.571212,177880.4786,-255945.9788,-20070.71173
-13.235706,-435.534264,1460.495916,-10909.11651,-4996.192016,29627.64784
-449.6877,-653.974398,1998.571212,97299.6936,176625.701,-17360.62134
320.79762,-345.37239,1998.571212,-155804.4146,286685.1648,-31117.33812
1178.436699,-139.138065,49.588011,1558.445216,286685.1648,-52202.18516
1469.530458,-406.921482,-1498.622499,-19234.19335,4337.290546,-28716.64494
1998.20412,85.032783,-214.473501,93317.63689,-286685.1648,41132.64046
1066.626594,392.89041,1998.571212,168168.8439,-286685.1648,18644.04681
-521.841672,-569.665602,1998.571212,-35219.71597,-81233.95688,9041.274084
5.485986,-709.048395,1868.579856,-3586.715828,71602.53627,-27702.50963
169.209018,-457.549587,1998.571212,66594.88509,286685.1648,-19549.32014
1365.031602,-305.665272,966.655206,-64354.6201,286685.1648,-30469.8958
1190.948418,-144.08361,-1341.425547,25175.76573,202511.9344,-29891.20843
1736.763237,-371.670453,-1481.053068,-42473.36171,-238929.1322,-991.216994
1998.20412,3.721905,1745.063595,30022.98872,-286685.1648,5460.287834
-584.736768,-569.91033,1998.571212,-31100.14938,-215724.3413,26378.97711
-112.483107,-467.797572,1496.797236,8130.271182,34337.36095,-515.66202
-393.930504,-1032.833736,1998.571212,-39373.66002,91489.9015,-11619.58418
802.626264,-767.059128,1998.571212,-56946.27574,286685.1648,62240.40581
1471.416903,-305.665272,-104.794569,-37431.33307,286685.1648,9293.375516
1207.171845,-342.996489,-1998.20412,12003.46591,106398.2635,-7007.273894
1940.009841,-282.793401,-279.49977,105137.7563,-286685.1648,25433.59674
762.796782,-258.69789,1998.571212,136289.4719,-286685.1648,52333.96545
-934.075791,-486.162369,1998.571212,-176178.7939,-100084.2685,-10611.17846
16.774065,-532.640295,925.357356,6411.397782,-23027.17398,-30475.62538
-593.883477,-762.919146,1998.571212,-73911.5562,204557.3938,20534.80755
1059.488694,-671.594814,1453.847472,-29364.08725,286685.1648,98331.01764
1176.550254,-68.075172,-668.974185,48546.71439,286685.1648,31839.26495
1425.550797,-219.898305,-1932.688395,30595.94652,-104536.1506,12433.18426
1998.20412,-258.514344,-18.96642,-22689.12888,-286685.1648,-1678.766354
1112.013441,-876.799242,1998.571212,76432.57052,-286685.1648,-16902.2551
-216.727038,-422.66565,1998.571212,-33558.13835,-16942.36215,-1942.326942
-159.266943,-955.611855,1998.571212,53823.65573,221219.0066,26539.4053
1248.102603,-639.820962,1769.342652,-72954.71667,286685.1648,115221.8136
1274.145741,-101.317392,-782.497386,81428.76254,286685.1648,39052.80365
1441.835406,-137.618712,-1895.295996,-194.805652,-27484.78567,-37712.0824
1998.20412,-365.623632,51.423471,66686.55834,-286685.1648,-69402.37831
648.355851,-798.659631,1998.571212,226089.1479,-286685.1648,-31581.43394
-608.648733,-727.474374,1998.571212,6692.147104,-3334.614396,-17612.72277
-356.232195,-872.098425,1998.571212,8915.223368,136982.7508,-9980.924876
330.066693,-797.741901,1998.571212,-82076.20485,286685.1648,76157.55078
812.813067,-157.013406,17.385885,-13808.28298,286685.1648,44599.03515
989.894169,-104.855751,-1858.698963,25788.83058,93833.29891,-9362.130452
1569.685392,-164.028942,-605.477466,61845.06493,-286685.1648,-23433.97402
1472.273451,-260.584335,1998.571212,-67752.25985,-286685.1648,-37861.05142
-707.651406,-488.84418,1998.571212,-120218.0056,-134776.8633,10273.13335
75.090708,-282.548673,949.146957,78678.5651,20380.10895,28172.33503
-353.73393,-1029.968379,1998.571212,28304.11532,229303.4411,12576.42371
768.527496,-496.471536,1998.571212,-82328.30628,286685.1648,58178.13501
1466.787465,49.108752,-491.587173,-9728.823444,286685.1648,21193.70902
1637.760564,-323.662977,-1979.910702,11780.01237,-74507.43231,-3071.053808
1925.377146,0.61182,136.02798,36646.38089,-286685.1648,30458.43665
1295.314713,-361.361286,1998.571212,203113.5401,-286685.1648,-27702.50963
-663.855291,-364.287825,1998.571212,-35764.02588,-41407.66021,-1747.52129
-67.40217,-284.80221,1195.210764,25032.52628,29060.41962,17761.6918
-260.278425,-728.514468,1920.676329,23290.73457,44117.7506,-11006.51934
36.780579,-464.075667,1998.571212,-32154.39174,286685.1648,20529.07797
1288.115631,-110.525283,989.037621,-13957.25201,286685.1648,18460.70032
1281.711915,-162.1323,-1410.418449,51617.7682,275546.8652,-36188.01465
1488.190968,-436.757904,-1387.30185,-56235.80807,-251677.4432,-26791.50673
1950.257826,-8.239176,769.812318,68015.82044,-286685.1648,16816.31143
-178.427106,-532.212021,1998.571212,99156.07687,-267863.5011,10152.81222
-557.592354,-545.152014,1912.192425,-18346.10876,1443.853656,17011.11708
54.166464,-316.219167,753.272784,11585.20672,27055.06732,15303.70284
-241.067277,-611.024634,1485.142065,-10972.14187,-26676.91517,-23290.73457
-332.62614,-761.144868,1998.571212,11722.71659,252078.5137,10221.56715
1198.810305,-288.585297,1990.821492,-130451.0319,286685.1648,44100.56187
1543.21398,-2.865357,-710.455581,-38222.01484,286685.1648,-5448.828678
1547.853615,-240.883731,-1998.20412,-3019.487606,-31392.35786,-2337.667824
1754.883306,38.799585,60.141906,114860.8502,-286685.1648,6892.682334
848.79828,-85.950513,1998.571212,124687.0764,-286685.1648,8130.271182
-408.38985,-697.464603,1998.571212,-59725.12107,-85032.6671,2286.101622
49.526829,-376.177527,996.542613,31747.5917,16449.61844,12765.49978
296.090289,-1005.566958,1982.470149,2326.208668,147742.8983,15681.85499
893.389761,-515.805048,1998.571212,-48122.72562,286685.1648,55473.7742
1398.651111,-260.829063,386.97615,40531.03477,286685.1648,45825.16484
1420.788798,-149.018958,-1998.20412,532.850754,148126.78,-6388.47947
1531.018368,-85.705785,-379.053081,19056.57643,-286685.1648,-12198.27156
1643.736006,-899.915841,1998.571212,-129064.474,-286685.1648,-65683.88219
-119.437461,-750.835701,1998.571212,135876.9423,-154692.8764,-15401.10566
-39.951846,-247.042719,1432.076877,217.723964,14719.28588,16867.87763
-293.959116,-1038.931542,1998.571212,11132.57005,204786.5769,-4302.913078
497.144538,-495.186714,1998.571212,51251.07521,286685.1648,38668.92192
1160.816283,-304.319268,161.948754,4268.53561,286685.1648,25874.77425
1155.564828,-216.48231,-1848.634524,33609.70455,108300.4834,-7534.39507
1532.843631,-178.784001,-802.870992,-47177.34525,-286685.1648,-25433.59674
1998.20412,-671.299101,1994.176305,-88928.78014,-286685.1648,-139606.8975
133.162623,-370.691541,1998.571212,1094.349398,-18770.09753,21709.37104
228.688119,-506.168883,1288.605087,14639.07179,30767.83386,-18139.84395
-55.023012,-419.004927,1998.571212,119043.4421,284146.9618,-23199.06132
375.749253,-273.218418,1873.953675,-45544.41552,286685.1648,-5574.879394
1013.68377,-221.183127,-41.236668,23863.69237,286685.1648,-9728.823444
1160.082099,-345.06648,-1783.179981,69070.06279,32297.63119,-9144.406488
1570.480758,-271.505322,-723.874833,-18867.50035,-286685.1648,-8181.837384
1998.20412,-643.236957,1836.316548,-132422.0067,-286685.1648,-84568.57128
523.126494,-606.150468,1998.571212,45876.73105,-285676.7591,13911.41538
87.347502,-390.881601,1791.847431,-6967.166848,9791.848802,19864.44693
120.661101,-424.980369,1009.839501,-8926.682524,12948.84628,-469.825396
-253.507617,-794.203542,1998.571212,-29226.57738,145502.6333,16799.1227
935.972433,-600.654285,1998.571212,8296.428944,286685.1648,46845.02973
1279.764288,-52.585929,94.363038,1592.822684,286685.1648,19400.35111
1177.773894,-321.766335,-1998.20412,54024.19096,140535.0892,-25977.90665
1293.785163,-339.029856,-655.983207,-30194.87606,-286685.1648,-716.19725
1897.009092,-617.611896,1702.786833,-104524.6915,-286685.1648,-93168.66786
89.488872,-767.609766,1998.571212,160571.4235,-195905.731,5792.603358
-253.629981,-504.03771,1982.898423,-11350.29402,-14146.32808,32927.88477
-9.880893,-844.474752,1998.571212,-25359.11223,279517.4627,-12112.32789
938.960154,-751.936977,1976.005251,-66440.18649,286685.1648,86482.25033
1180.333341,-195.558066,38.799585,26659.72643,286685.1648,17864.8242
954.755307,-315.056709,-1721.45754,7901.088062,133779.9167,-8749.065606
1369.610055,-390.881601,-626.829984,13344.18716,-286685.1648,-7935.46553
1906.216983,-553.625721,1489.904064,-72101.00955,-286685.1648,-55588.36576
-15.428061,-997.521525,1998.571212,186692.5696,-186050.8568,-12204.00114
16.345791,-479.819835,1617.937596,-22058.8753,24786.15443,24436.65017
-246.196368,-936.69642,1998.571212,2933.543936,13349.91674,-9946.547408
250.03044,-673.736184,1998.571212,-55966.5179,286685.1648,31375.16913
1466.053281,-349.094295,1056.439791,21245.27522,286685.1648,62910.76644
1191.499056,55.023012,-1060.039332,32801.83405,286685.1648,-13395.75336
1068.462054,-305.053452,-1747.745406,-996.946572,-144769.2473,-27238.41381
1462.025466,-287.973477,-17.875341,-2377.77487,-286685.1648,-40731.57
1384.620039,-556.185168,1998.571212,106266.4832,-286685.1648,-39155.93605
-343.669491,-463.9635,1998.571212,-43848.46043,-93712.97777,4400.315904
188.002089,-413.9982,782.00793,34984.80327,32165.85089,14656.26052
6.893172,-848.247642,1733.041332,-72851.58427,-41098.26299,-42221.26028
78.445521,-893.022669,1998.571212,-68038.73875,286685.1648,9493.910746
1191.550041,-239.058468,879.970509,-40066.93895,286685.1648,115737.4756
917.485272,99.675675,-788.962284,-16014.17051,286415.8746,5557.69066
801.647352,-293.836752,-1569.195936,33374.79185,-44713.62671,-28447.35477
878.930415,-430.833447,-131.082435,112339.8358,-286685.1648,-8995.43746
662.815197,-328.108869,1998.571212,110179.7849,-286685.1648,105825.3057
-787.677462,398.876049,1998.571212,61020.0057,-127362.7894,102066.7025
-73.62234,567.350883,1998.571212,226679.2944,107905.1425,76953.96212
1106.405091,598.584294,1998.571212,257057.517,286685.1648,5660.823064
1363.512249,5.363622,304.68636,113084.681,286685.1648,-131453.7081
980.319186,-297.375111,-1328.495751,46845.02973,130857.8319,-66182.35548
1125.004419,-229.473288,-861.911622,-65351.56667,-245483.7694,36102.07098
1489.16988,13.05216,1163.498094,-202053.5682,-286685.1648,54654.44454
-508.789512,1266.334839,1998.571212,-27358.73495,-170460.6751,31100.14938
-415.160658,676.785087,1635.445845,-8067.245824,9625.69104,-36612.00342
-519.159861,1125.555057,1998.571212,58705.25619,110196.9737,37677.70493
631.214694,1145.745117,1998.571212,94348.96093,286685.1648,-122183.2509
1162.274454,-10.431531,299.812194,44352.6633,286685.1648,-87158.34054
1109.759904,-278.58204,-1381.989213,24396.54312,193258.6659,30704.8085
1065.290787,-12.13443,-851.123196,-56602.50106,-260844.768,37299.55278
1143.369216,171.890829,604.498554,-157437.3443,-286685.1648,57410.37156
472.865481,1058.764707,1998.571212,-37694.89366,-286685.1648,82826.77957
-449.198244,1062.782325,1998.571212,-82838.23872,12055.03211,-20162.38498
-12.74625,453.654333,719.663472,-1266.236738,-21262.46396,-33483.65383
-351.480393,838.060839,1998.51003,-41081.07426,20763.99067,-24935.12346
86.134059,694.843974,1998.571212,23588.67263,286685.1648,-44318.28583
1134.82413,-92.415411,741.138354,105217.9704,286685.1648,-31174.6339
1072.969128,-182.811816,-1237.548708,46380.93391,252382.1813,40445.0911
945.608598,85.399875,-1318.492494,-36296.87663,-222519.6208,30991.2874
1130.011146,138.220335,474.87429,-144683.3037,-286685.1648,95013.59197
710.945037,838.060839,1998.571212,-2171.510062,-286685.1648,38972.58956
-430.405173,1155.442464,1998.571212,20827.01603,-26774.31799,-23170.41343
-359.403462,1287.809721,1998.571212,-31896.56073,194845.759,2188.698796
1101.520728,438.032529,1505.454489,166266.624,286685.1648,-91684.70716
938.654244,-73.867068,-121.996908,44702.16756,286685.1648,-24511.13468
937.92006,-104.672205,-1699.921476,35815.59208,123644.2932,1879.301584
1068.829146,53.187552,-455.90787,-47950.83828,-286685.1648,57249.94338
1317.513582,-74.968344,1668.015063,-269702.6956,-286685.1648,21709.37104
-164.212488,1585.674288,1998.571212,96772.57242,-188675.0035,55393.5601
-131.755437,618.34608,1395.959103,-39946.61782,44599.03515,-31174.6339
-273.697677,899.915841,1979.604792,-18237.24677,62211.75792,13516.0745
367.520274,1040.70582,1998.571212,66554.77805,286685.1648,-47469.55373
1282.140189,55.390104,895.775859,83107.52889,286685.1648,-67849.66268
892.594395,-102.78576,-857.46573,61976.84523,257240.8635,-10588.26014
988.425801,-43.612569,-1784.831895,-10473.66858,-127752.4007,30905.34373
1375.952589,36.841761,203.613696,-115622.884,-286685.1648,54196.0783
1267.313751,468.592938,1998.571212,-81486.05832,-286685.1648,43768.24634
-592.486488,1837.479006,1998.571212,-56848.87292,-37855.32185,-1461.04239
-12.929796,519.282225,805.675167,-20082.17089,-561.498644,-36801.07949
-178.365924,1017.099765,1998.571212,19102.41305,206281.9967,-11470.61516
1289.583999,668.913003,1504.842669,38204.8261,286685.1648,-113600.343
1060.100514,-103.754475,-378.563625,37591.76126,286685.1648,-18105.46648
1025.8182,-112.666653,-1838.753631,52901.19367,24344.97692,18225.78762
1087.428474,46.845018,-434.127078,-61782.03957,-286685.1648,50729.68361
1557.18387,69.115266,1558.591056,-184990.8849,-286685.1648,39665.86849
-301.515093,1993.697046,1998.571212,132187.094,-154893.4117,57163.99971
-237.100644,702.216405,1182.280968,-17778.88053,40765.94747,-18311.73129
155.116764,374.352264,674.592732,4102.377848,452.636662,-27616.56596
-248.388723,1198.086318,1997.89821,-49366.04405,59438.64217,8451.12755
376.911711,1470.315627,1998.571212,96715.27664,286685.1648,-81778.26679
1116.887607,313.782084,683.494713,121730.6142,286685.1648,-81251.14562
882.407592,-2.314719,-688.613607,55599.82491,286335.6606,-55227.40234
1033.200828,-234.112923,-1783.363527,-35259.82301,-107211.8635,3506.501736
1090.110285,-9.452619,174.460473,-84963.91216,-286685.1648,42639.51948
1160.989632,482.134554,1998.571212,-29856.83096,-286685.1648,46226.2353
-339.947586,1449.034488,1998.571212,27003.50111,-75934.09723,-1896.490318
-133.407351,505.618245,1181.975058,18260.16509,15085.97887,-28527.56886
36.780579,147.978864,412.968303,-8015.679622,-44982.91688,29942.77463
-640.06569,1589.090283,1998.571212,69625.83186,119742.4506,18025.25239
388.872792,967.501557,1974.414519,52912.65283,286685.1648,-48139.91436
1090.966833,33.609312,232.104114,66606.34425,286685.1648,-36136.44845
1216.5021,-239.843637,-1995.828219,17331.97345,134026.2886,-830.78881
1406.390634,-71.001711,-518.129964,-48833.19329,-286685.1648,34154.01446
1390.411935,794.876544,1998.571212,-126497.6231,-286685.1648,101298.939
-116.14383,1312.14996,1998.571212,-10720.04044,-92950.94389,40553.95308
56.542365,614.195901,1206.315297,-9591.313572,-13183.75898,-20815.55687
-88.81587,1056.623337,1998.571212,97632.00912,172042.0386,-14982.84647
540.390015,822.326868,1998.571212,82099.12316,286685.1648,-79560.92011
934.259337,163.845396,771.270489,75991.39301,286685.1648,-69150.27688
897.23403,-16.468155,-930.720978,45114.69717,253848.9533,-8668.851514
1126.533969,-48.802842,-1329.413481,-45842.35358,-204024.543,29260.95485
1763.968833,-199.952973,216.359946,-182962.6143,-286685.1648,66262.56957
1426.947786,172.074375,1998.571212,-58155.2167,-286685.1648,74112.09143
-90.03951,1336.857291,1998.571212,-39041.34449,-101677.0912,11367.48275
-22.810689,708.987213,1055.827971,-44283.90836,-13292.62096,-30561.56905
-149.69196,405.585675,1260.604125,-3483.583424,29673.48446,14094.76188
-169.453746,1433.90214,1998.571212,-20769.72025,238803.0815,-16844.95932
804.512709,388.016244,1176.550254,161682.9616,286685.1648,-44965.72814
685.74825,121.323906,18.905238,86837.48417,286685.1648,-42771.29977
910.469736,-176.163372,-1719.62208,39917.96993,125254.3047,10834.632
1321.541397,-145.970055,-691.733889,-126955.9893,-286685.1648,44845.40701
1935.992223,-46.477926,1774.155636,-159356.7529,-286685.1648,91088.83104
893.083851,1265.304942,1998.571212,81268.33435,-212607.4508,65941.7132
273.942405,802.5039,1428.232608,-22362.54293,5076.406108,-25565.37704
206.479053,826.844139,1839.793725,-1621.470574,54511.20509,26373.24753
356.599287,1121.833152,1998.571212,90177.82814,286685.1648,-92068.58888
989.465895,52.759278,677.763999,31833.53537,286685.1648,-69597.18397
797.191263,-88.693506,-1070.654409,57777.06455,229177.3904,29776.61687
1082.064852,-76.008438,-1290.675078,-11946.17013,-206218.9714,50678.11741
1805.205501,-176.163372,444.007971,-198644.4693,-286685.1648,85949.39958
792.745371,1177.223256,1998.571212,-5821.251248,-286685.1648,115027.0079
-92.537775,1295.865351,1726.943526,-18191.41015,-3105.431276,-4698.25396
126.697725,521.056503,853.070823,-68015.82044,15303.70284,-32383.57486
-48.43575,876.43215,1876.14603,41476.41514,54356.50649,-13888.49707
312.43608,1132.754139,1998.571212,35884.34701,286685.1648,-67735.07112
735.162912,407.900394,491.464809,157448.8034,286685.1648,-97185.10204
716.675751,-122.792274,-584.675586,15773.52823,282582.787,-3913.301774
931.638708,-120.416373,-1293.907527,-825.059232,-118029.3068,35053.5582
1107.067896,25.859592,26.899686,-145479.715,-286685.1648,87078.12644
951.951132,451.023507,1998.571212,-235193.4473,-286685.1648,44478.71401
-403.872579,1998.20412,1989.730413,74375.65202,-42278.55606,40943.56439
-54.227646,699.840504,894.491037,-146258.9376,30005.79999,-69912.31076
-923.766624,-69.23763,489.333636,-73418.81249,429.71835,-4715.442694
-901.323027,-60.447816,423.389637,-7780.766924,25954.98834,-2967.921404
-926.754345,-52.096473,407.043846,8462.586706,31953.85651,3357.532708
157.44168,92.537775,-1042.163991,-117284.4617,-185300.2821,-34818.64551
1271.402748,-224.782668,1998.571212,117135.4926,-286685.1648,-95122.45396
155.483856,-55.57365,1947.270105,-44106.29144,3449.205956,15355.26904
188.787258,-133.774443,1222.293996,27771.26457,39058.53323,-4692.524382
-816.47379,-67.035078,505.924155,343.77468,45217.82958,4583.6624
-951.155766,-4.027815,636.894423,-5970.220276,24362.16566,-1644.388886
-898.335306,44.958573,299.628648,-10296.05167,34337.36095,-7585.961272
566.066061,34.221132,-1074.86577,-6692.147104,-278251.226,14461.45487
1751.222583,-221.060763,1942.028847,38955.40082,-286685.1648,-2326.208668
381.490164,97.350759,1998.571212,-5179.538512,18260.16509,-2320.47909
451.512963,95.64786,1213.820289,29977.1521,52070.40486,-5695.200532
-663.732927,108.0882,-383.804883,22024.49783,-60057.4366,18867.50035
798.781995,-279.560952,-501.59043,-113302.405,-286685.1648,-43751.05761
1368.02952,-379.960614,1998.571212,-5792.603358,-286685.1648,-28080.66178
398.753685,165.793023,1984.478958,3283.048194,4211.23983,-11017.97849
-199.279971,-17.263521,-770.108031,18076.81859,-61329.40291,35523.3836
1104.997905,-246.318732,845.321103,-12461.83215,-286685.1648,-2876.248156
1042.469901,-149.875506,1998.571212,-76317.97896,-283711.5138,825.059232
415.405386,56.001924,1782.517176,29450.03092,-27536.35187,-14805.22955
-65.393361,-47.640384,-854.845101,16048.54798,-151163.4564,31323.60293
708.926031,42.511293,940.968963,70886.33902,-286685.1648,-42685.3561
749.010438,-81.739152,1998.571212,24402.2727,-237817.594,17761.6918
284.741028,77.405427,1726.821162,24728.85865,-3300.236928,-14558.8577
-249.612363,-192.142071,-751.080429,-55983.70664,-94245.82852,-5987.40901
932.128164,-134.376066,261.624429,-8600.096578,-286685.1648,-57049.40815
884.977236,-265.101606,1998.571212,83273.68665,-286685.1648,8267.781054
273.697677,129.80781,1534.495545,10593.98972,-16667.3424,6056.163946
350.317935,56.001924,1121.710788,-42014.99547,-31174.6339,-12055.03211
-446.761161,-60.141906,-269.312967,3414.828488,16495.45506,19789.96241
297.252747,43.612569,-736.376355,-78415.00451,-285722.5957,-20466.05262
1322.030853,-393.379866,1274.023377,-77400.8692,-286685.1648,-28200.98292
726.189552,236.97828,1998.571212,148556.4984,-280210.7417,12576.42371
409.368762,312.803172,1432.98441,-40949.29397,-28865.61396,2692.90166
-399.365505,-244.299726,-676.417995,30974.09867,69625.83186,1925.138208
-139.688703,-65.943999,-403.383123,-11132.57005,-199332.0186,27731.15752
811.038789,-178.24356,256.740066,-61134.59726,-286685.1648,-4864.411722
1083.461841,-78.629067,1998.571212,72255.70816,-286685.1648,30395.41129
458.100225,244.238544,1850.286438,4875.870878,-84797.7544,4950.355392
499.703985,187.696179,1301.596065,-15022.95352,-47990.94533,-22694.85846
-538.860465,-96.320862,27.083232,22775.07255,184223.1214,7368.237308
-299.38392,-139.749885,-811.405881,28951.55763,-56333.2109,12215.4603
353.060928,-184.586094,-662.509287,-86413.4954,-281213.4178,-16180.32827
1743.656409,-158.961033,1338.8661,11035.16723,-286685.1648,-16913.71426
663.916473,34.832952,1998.571212,43602.08858,-220726.2629,18884.68909
367.581456,29.030859,1585.368378,-19956.12017,-30607.40568,-8651.66278
-759.380787,-25.614864,182.750634,7076.02883,178178.4166,1157.374756
-673.858548,-39.645936,-529.285482,-29364.08725,52929.84156,11356.0236
-407.410938,5.547168,-770.352759,-20981.71464,-119410.1351,1890.76074
571.011606,73.255248,-513.735057,-71871.82643,-286685.1648,-19039.38769
1602.325989,42.337944,1362.594519,-88000.5885,-286685.1648,13888.49707
1307.938599,-229.656834,1998.571212,187162.3949,-249339.7754,-39006.96702
735.040548,264.367422,1783.914165,-3248.670726,28842.69565,10003.84319
-938.042424,-52.82046,27.511506,1065.701508,-4434.693372,4480.529996
-256.016079,-183.301272,-834.226767,51268.26394,-103178.2406,33065.39464
886.557771,-138.220335,286.698852,-94343.23135,-286685.1648,19068.03558
1465.196733,-396.795861,1998.571212,-168392.2974,-286685.1648,-43349.98715
833.798493,-144.08361,1998.571212,125483.4878,-231629.6498,-5712.389266
613.706445,161.704026,1573.774389,40977.94186,-9081.38113,4979.003282
-726.12837,17.508249,-535.393485,-25874.77425,-6210.862552,12169.62367
-230.268654,-44.224389,-546.732549,-12186.81241,-183678.8115,-11900.33351
14.092254,-105.834663,708.813864,-55026.86711,-286685.1648,5557.69066
930.965706,-192.815073,1352.713626,-11424.77853,-286685.1648,-19749.85537
925.724448,-282.915765,1912.926609,112368.4837,-240212.5577,-15572.993
586.929123,143.532972,1671.79815,31403.81702,-14238.00133,-11499.26305
-354.712842,631.275876,659.888658,15739.15077,33013.82844,70857.69113
-218.92959,899.671113,317.259261,114184.76,90928.40286,35637.97516
188.246817,1330.575939,-523.248858,95827.19205,-140947.6188,14444.26614
552.351096,1151.659377,33.731676,136988.4804,-286685.1648,-35053.5582
355.559193,740.465352,483.358194,22236.49222,-242515.848,-53434.04443
89.672418,907.053741,876.065058,28487.46182,-154245.9693,-23073.01061
-55.57365,719.541108,840.691665,630.25358,-43602.08858,-24883.55725
-572.724702,79.607979,898.641216,14077.57315,13229.5956,16266.27194
-607.180365,134.437248,886.129497,110775.6611,25748.72353,28751.0224
-454.745412,633.906702,394.970598,194782.7337,3506.501736,54986.76007
18.96642,1424.510703,-255.037167,286685.1648,-139194.3679,107504.072
283.282857,1091.762199,-249.245271,116155.7348,-201904.5991,18558.10314
327.62961,1023.014025,449.442972,16180.32827,-203548.988,-7872.440172
-59.050827,909.36846,785.607471,91936.80859,-140964.8075,-532.850754
-221.672583,781.885566,836.96976,-32154.39174,-19182.62714,9310.56425
-244.360908,793.958814,876.12624,-122412.434,34337.36095,15469.8606
-565.892712,83.625597,643.114593,7540.124648,10983.60103,6606.203434
-569.247525,581.565501,431.995905,210596.369,-21233.81607,39350.7417
-229.299939,1496.00187,141.94224,286685.1648,-117444.8898,74627.75345
426.989178,1274.757561,-552.830355,251110.215,-182000.0452,95368.82581
703.562409,1054.002708,-48.12984,110506.3709,-286685.1648,115078.5741
433.698804,1050.464349,716.798115,16054.27756,-181054.6648,70628.50801
123.28173,1053.880344,821.959776,-86482.25033,-41665.49122,30893.88458
-544.540194,-99.675675,742.23963,-10840.36158,17257.48894,10485.12774
-536.423382,203.43015,655.371387,120086.2253,-44828.21827,62985.25095
-268.578783,1391.574393,250.397532,286685.1648,-70279.00375,93248.88195
339.396948,1379.980404,-304.145919,286685.1648,-221854.9897,87834.43074
636.588513,1109.270448,-17.263521,94956.29619,-257068.9761,79675.51167
402.842682,1139.769675,781.39611,51004.70336,-178430.5181,52007.37951
-97.106031,1106.160363,883.57005,-17841.90589,-15217.75917,2870.518578
-342.935307,976.903191,40.441302,150017.5408,33168.52704,85897.83338
-78.261975,893.756853,-572.235246,81096.44701,-62074.24805,43418.74208
284.373936,1025.757018,-759.921228,62108.62552,-133418.9533,14627.61263
723.201831,781.212564,-321.766335,16346.48603,-284358.9561,91552.92686
492.627267,1169.534718,829.954224,4297.1835,-204362.5881,17160.08611
38.065401,1006.54587,731.930463,-23772.01912,-66056.30476,33225.82282
-39.951846,972.99774,842.027472,-55456.58546,3798.710214,9545.476948
-400.94604,228.749301,503.058798,279082.0148,-15968.33389,120389.8929
-198.372438,1478.432439,-278.153766,286685.1648,-45710.57328,87026.56024
256.984794,1017.466857,-923.766624,222777.4518,-146413.6362,65133.8427
717.287571,1025.8182,-474.26247,74358.46328,-251064.3784,103252.7251
530.998578,1302.024339,216.727038,74902.77319,-226902.748,84431.06141
25.4925,1141.65612,705.754764,16312.10857,-115874.9855,52620.44435
-160.674129,980.380368,753.395148,-75372.59859,-3466.39469,16518.37337
-955.122399,83.442051,303.840009,-67924.14719,2692.90166,-59324.05061
-608.036913,-871.557984,-62.833914,-239066.6421,6377.020314,-211782.3916
44.775027,-1956.427011,-590.528664,-280445.6544,-95936.05403,-210052.0591
781.518474,-1620.925317,-802.259172,-286467.4408,-286685.1648,-94148.4257
920.962449,-984.336804,293.408478,-57994.78852,-286685.1648,-137263.5001
361.361286,-1128.053322,1074.498678,-40021.10233,-211346.9437,-63185.78618
-178.600455,-888.637959,1022.341023,72828.66596,1495.419858,-14558.8577
-844.658298,90.274041,361.78956,-3964.867976,8084.434558,1495.419858
-1068.584418,121.44627,214.718229,-175594.377,16065.73671,-155093.9469
-249.551181,-904.555476,-294.377193,-282651.5419,-10943.49398,-248990.2711
422.849196,-1617.386958,-1036.678005,-228174.7143,-110099.5708,-209473.3717
1218.64347,-1998.571212,-458.344953,-115542.6699,-286685.1648,-121037.3353
1137.505941,-1065.89241,955.244763,48735.79047,-286685.1648,-71825.98981
57.949551,-778.102479,1439.8164,-42788.4885,-144551.5234,33689.91864
-410.704569,-731.012733,1071.816867,47160.15652,-22104.71192,21233.81607
-153.536229,-492.504903,1112.135805,195705.1957,67070.44007,-48982.16232
-1052.22843,148.651866,469.021212,-9499.640324,76650.29448,-6554.637232
-947.127951,91.620045,181.414827,-204591.7712,-27880.12655,-190978.2939
-87.041592,-1095.117012,-645.306948,-246698.4399,-86911.96868,-264190.8416
696.118599,-1559.437407,-863.441172,-196329.7197,-191127.2629,-195344.2323
1050.647895,-1652.403456,-371.853999,-136054.5592,-286685.1648,-105653.4183
660.072204,-1107.434988,1273.778649,83502.86977,-286685.1648,-49692.62999
-217.70595,-828.669402,1685.829222,7167.702078,-101946.3814,32595.56924
-309.020085,-579.373146,756.505233,56837.41376,18758.63837,14106.22104
-1079.495208,270.648774,437.543073,-53560.09514,41161.28835,-15275.05495
-773.768754,-182.444724,16.406973,-272229.4395,32463.78895,-216652.5329
10.798623,-1208.089575,-665.313462,-210831.2817,-109297.4299,-254301.59
680.812902,-1920.064509,-709.109577,-210682.3126,-220061.6318,-165389.9985
904.922568,-1532.354175,-245.33982,-142798.2725,-286685.1648,-114391.0248
376.055163,-988.119891,1166.424633,82391.33164,-286685.1648,-12267.0265
-374.780538,-703.195317,1386.445302,-41476.41514,-75286.65492,36170.82591
-419.851278,-681.05763,826.905321,69963.87696,25341.92349,-3082.512964
-1003.558149,187.329087,394.481142,-110116.7596,42719.73357,-30727.72681
-849.226554,-435.595446,-34.46586,-280113.3388,-17291.8664,-190645.9784
-282.426309,-1334.17548,-645.36813,-241392.8507,-31867.91284,-204047.4613
755.414154,-1593.536175,-759.625515,-163671.1251,-230157.1483,-161814.7419
667.148922,-1076.935761,795.121272,1506.879014,-286685.1648,-31323.60293
-174.766383,-881.622423,1376.625591,-86510.89822,-129087.3923,24396.54312
-596.514303,-622.373895,886.802499,13195.21813,-22144.81897,21182.24987
-292.307202,-414.548838,796.222548,251797.7644,25341.92349,-8496.964174
-880.031691,17.141157,880.582329,-2675.712926,51119.29492,-4812.84552
-942.865605,232.715934,527.766129,-34990.53285,166650.5057,-8628.744468
-726.923736,-17.630613,-65.882817,-95179.74974,96996.02596,-74175.11679
-196.475796,-943.110333,-417.903651,-273793.6143,-141262.7456,-271146.5493
617.856624,-1998.571212,-944.507322,-251482.6376,-132169.9053,-239874.5125
961.281387,-1552.911327,-547.772643,-123741.6961,-286685.1648,-94331.77219
711.250947,-1316.850777,1447.321392,34343.09053,-286685.1648,-25341.92349
-196.659342,-691.427979,1262.378403,-65775.55544,-44599.03515,29598.99995
-272.851326,-576.925866,885.221964,94125.50738,-1879.301584,-23686.07545
-831.840669,-164.701944,605.29392,81377.19633,70840.50239,10359.07702
-1015.753761,82.473336,501.355899,-45899.64936,10129.8939,-67557.4542
-843.557022,-371.609271,188.552727,-234122.0162,-27971.7998,-200145.6187
-13.113342,-1278.479466,-489.211272,-275099.9581,2406.42276,-169148.6017
541.980747,-1391.574393,-706.611312,-111056.4104,-158611.9078,-71058.22636
847.156563,-1552.544235,-1.651914,-130032.7727,-286685.1648,-78174.36223
764.805591,-1517.476752,1382.601033,-20494.70051,-286685.1648,-58613.58294
-211.363416,-426.020463,1579.505103,18369.02707,-88986.07592,56596.77148
-86.011695,-89.794782,1160.938647,-5127.97231,-48827.46372,-61764.85084
128.58417,-23.789601,1152.638289,42851.51386,-5448.828678,-83691.94585
79.302069,-29.092041,1004.475879,15166.19297,-9356.400874,-82528.84151
332.01432,-779.326119,963.178029,-31375.16913,-11390.40106,-26986.31238
1485.325611,-834.287949,1611.778608,100032.7023,161763.1757,149920.1379
1050.709077,573.020415,961.832025,-120997.2282,157712.364,286685.1648
-100.226313,1635.935301,642.258045,-37374.03729,108415.0749,133436.142
-245.095092,777.184749,647.5095,54356.50649,-61890.90156,-135556.0859
-219.113136,-311.701896,911.50983,27971.7998,-2160.050906,-16002.71135
-193.426893,-271.13823,995.135427,4675.335648,-34492.05956,-14444.26614
-116.633286,-1063.516509,1460.92419,-16443.88886,-22958.41905,67167.84289
1140.799572,-1669.238703,1110.728619,-163545.0744,10341.88829,286685.1648
524.594862,1254.016863,936.757602,-106312.3198,-18288.81298,284954.8323
324.213615,795.121272,1243.646514,-7603.150006,-8296.428944,-40147.15305
327.201336,553.013901,1007.341236,44948.53941,-263.560588,-241570.4676
-217.277676,-181.781919,965.431566,-29908.39716,62893.57771,10078.3277
-239.966001,-620.365086,975.863097,-1862.11285,-1380.828298,-27135.28141
545.937183,-1026.307656,1111.340439,-35391.60331,52528.7711,286685.1648
342.751761,1233.643257,752.242887,-58407.31813,38955.40082,286685.1648
88.081686,887.964957,929.201625,61913.81987,-77567.02696,-20930.14843
-207.825057,83.686779,990.873081,-36617.733,19537.86098,635.983158
-320.430528,345.37239,1096.157106,-18357.56791,23600.13178,-121736.3438
844.658298,184.46373,844.168842,75240.8183,141085.1287,-286685.1648
237.345372,-590.4063,923.521896,43252.58432,-12794.14767,-121421.217
311.82426,-469.082394,916.088283,6342.642846,-30876.69584,184704.406
-106.813575,3.905451,1019.353302,-46375.20433,37798.02607,395.340882
-254.792439,-24.095511,969.826473,-7895.358484,429.71835,-20529.07797
-539.411103,648.784125,1008.065223,-45544.41552,58395.85898,-190479.8206
753.578694,867.163077,913.885731,61466.91278,8267.781054,-286685.1648
195.445899,-444.436245,986.66172,30853.77753,-56413.42499,-139876.1877
188.970804,-258.330798,1013.806134,2916.355202,55886.30381,90040.31827
-57.766005,-12.868614,1134.579402,-58762.55197,37763.6486,8668.851514
-206.295507,-13.05216,985.254534,-4635.228602,-10651.2855,-1690.22551
-432.974817,584.675586,1085.603211,3082.512964,10261.6742,-114179.0304
840.263391,777.551841,854.845101,231394.7371,63987.9271,-286685.1648
230.880474,-597.23829,1202.899302,10141.35306,-7883.899328,-169784.5849
474.629562,-290.777652,1127.869776,-35592.13854,-29914.12674,86063.99114
-92.598957,-18.242433,1028.928285,6537.448498,-8943.871258,-11762.82363
-158.716305,102.296304,1056.011517,-5007.651172,-8227.674008,-3122.62001
-419.851278,957.926574,1107.985626,-88521.9801,16684.53114,-190531.3868
829.403586,-278.643222,946.220418,16827.77059,96915.81187,-286685.1648
67.340988,-580.097133,1141.594938,40066.93895,-34337.36095,-150418.6112
472.498389,-317.626353,1180.761615,-26539.4053,42685.3561,119421.5943
-80.270784,-76.915971,1127.38032,1443.853656,44845.40701,10473.66858
-519.771681,-106.874757,1649.538099,36531.78933,24946.58261,-31650.18887
366.17427,-122.97582,1998.571212,3432.017222,286685.1648,-24763.23612
568.819251,29.092041,-847.034199,-104284.0492,286685.1648,-48661.30595
-864.358902,-246.920355,-107.659926,37757.91902,-260804.661,21680.72315
16.284609,-58.194279,1223.701182,-26470.65036,58693.79703,-5397.262476
-488.354724,-95.403132,1352.652444,53078.81059,105911.2493,-33397.71016
223.803756,45.019755,1998.571212,-13647.8548,286685.1648,-77991.01574
290.359575,19.088784,-843.006384,-115353.5939,286484.6296,-31151.71559
-149.447232,78.690249,-995.869611,23267.81626,-57284.32084,10972.14187
-188.787258,2.865357,1026.246474,-33626.89328,38691.84023,5941.572386
-604.559736,-167.995575,1598.236992,47309.12555,-8370.913458,-23668.88672
-370.385631,17.691795,1998.571212,11556.55883,286685.1648,-22379.73167
419.372019,113.829111,47.762748,-51251.07521,286685.1648,-56270.18554
155.422674,-37.698309,-794.631816,3357.532708,172328.5175,-5380.073742
-481.461552,-304.023555,1619.773056,-10823.17284,62412.29315,-32480.97768
-643.909959,249.857091,1998.571212,5345.696274,224524.9731,13092.08573
605.171556,226.730295,1387.118304,-56367.58836,286685.1648,-32205.95794
808.356978,-137.792061,-921.268359,-11058.08554,286685.1648,-33712.83695
295.600833,-76.732425,-1070.960319,-15051.60141,-91352.39163,28006.17726
-778.775481,-52.096473,537.402294,8978.248726,46426.77053,-6594.744278
-865.511163,-52.280019,445.353975,2824.681954,9528.288214,1163.104334
-461.51622,19.822968,-291.389472,-27375.92368,-13991.62948,-11802.93068
1178.926155,54.778284,138.342699,-618.794424,-286685.1648,-161631.3954
1555.175061,-357.761745,1769.097924,153403.7214,-286685.1648,-21623.42737
1181.669148,-92.721321,1722.426255,-43218.20685,41625.38417,-1398.017032
910.959192,-101.929212,1204.67358,25857.58551,75618.97044,9809.037536
