accX[mg],accY[mg],accZ[mg],gyroX[mdps],gyroY[mdps],gyroZ[mdps]
-944.874414,34.15995,389.902689,26974.85322,-4062.270802,2904.896046
-991.229976,46.539108,324.692874,2750.19744,3563.797516,-2211.617108
-986.35581,46.110834,301.025637,5408.721632,1398.017032,-1942.326942
-986.416992,19.761786,276.634413,2692.90166,3689.848232,-5660.823064
-969.948837,18.844056,265.101606,1558.445216,1627.200152,-3603.904562
-995.624883,32.93631,275.471955,2406.42276,-3936.220086,5322.777962
-1014.836031,15.489243,314.393904,2801.763642,-446.907084,2807.49322
-989.465895,27.389142,339.396948,-3999.245444,4182.59194,-5523.313192
-862.706988,297.191565,75.4578,2521.01432,9688.716398,59501.66753
-1346.799366,1230.288444,231.737022,52414.17954,24900.74599,286685.1648
-777.001203,1129.21578,679.038624,103934.5449,-19320.13702,286685.1648
-7.994448,549.291996,-71.552349,52030.29782,-3632.552452,225017.7168
93.628854,521.902854,-35.801667,17068.41286,-18924.79613,22356.81336
224.660304,714.728124,-107.292834,-9396.50792,6772.361196,-64222.8398
-199.402335,665.619372,377.462349,-83451.30357,25061.17417,-228736.2129
-1010.757231,-56.725911,163.35594,-5758.22589,-10473.66858,-4182.59194
-1015.570215,-67.769262,297.130383,7918.276796,0,-1655.848042
-1004.353515,-86.562333,203.246604,-1564.174794,-7522.935914,464.095818
-1010.696049,-52.157655,240.577821,2876.248156,-1512.608592,-1111.538132
-991.291158,-53.860554,219.113136,1512.608592,1294.884628,-647.442314
-995.135427,-60.447816,212.515677,263.560588,-1873.572006,-1489.69028
-1021.311126,-50.322195,203.491332,2859.059422,-3878.924306,1592.822684
-924.072534,-16.039881,175.551552,3884.653884,-1988.163566,21159.33155
-871.43562,320.246982,140.973525,12513.39835,-5042.02864,166461.4296
-816.902064,1199.299761,216.910584,48369.09748,-17876.28336,286685.1648
-626.40171,1328.067477,396.428769,101086.9447,-17876.28336,286685.1648
-125.657631,914.191641,-33.54813,62693.04248,-28137.95756,186566.5188
44.346753,473.783211,-139.321611,18340.37918,-11768.55321,-22459.94576
251.927082,761.81787,-148.896594,-1827.735382,-3729.955278,9746.012178
-1010.145411,-9.269073,200.564793,-5511.854036,1546.98606,-8812.090964
-1024.727121,26.654958,162.377028,1065.701508,-3317.425662,-1312.073362
-1025.145198,-17.814159,209.222046,3947.679242,-4417.504638,-5242.56387
-1005.811686,-11.777535,196.536978,2377.77487,-2257.453732,-1512.608592
-1008.738225,-20.373606,184.402548,-933.921214,-85.94367,-1375.09872
-1002.150963,-14.948802,195.017625,-401.07046,286.4789,137.509872
-985.560444,-15.19353,185.615991,-7952.654264,-1375.09872,1695.955088
-1033.078464,28.062144,203.368968,-3334.614396,-10124.16433,28332.76321
-900.344115,293.286114,176.836374,-6187.94424,-9757.471334,80105.23002
-1154.70828,862.46226,438.827895,26608.16023,-24121.52338,246497.9047
-560.641257,1034.913924,375.637086,85834.80802,-60189.21689,286685.1648
-81.739152,612.615366,88.265232,38021.47961,-53095.99933,136043.1
-95.95377,621.823257,133.652079,1747.52129,-13258.24349,29066.14919
46.60029,819.033237,60.203088,-11888.87435,18655.50597,-56613.96022
-1019.59803,16.896429,267.599871,-6222.321708,-681.819782,-7150.513344
-1002.518055,-13.35807,213.555771,3781.52148,10307.51082,-1506.879014
-982.389177,-6.403716,188.909622,-784.952186,-1976.70441,-693.278938
-923.521896,50.689287,203.858424,-5127.97231,-2601.228412,27668.13216
-1305.92979,544.72374,336.653955,-13430.13083,-8004.220466,175009.96
-1068.400872,1076.813397,519.098679,13991.62948,12599.34202,286685.1648
-353.550384,810.070074,181.659555,82162.14852,-63340.48479,266385.27
-51.851745,556.613442,79.485615,35007.72158,-68646.07402,142408.6612
102.17394,756.566415,-79.118523,5993.138588,-25565.37704,63403.51015
135.293796,959.394942,52.524747,-9247.538892,5655.093486,-26247.19682
-958.293666,-0.061182,256.86243,-3202.834102,1094.349398,18558.10314
-982.144449,43.857297,337.632867,7104.67672,-733.385984,1804.81707
-994.462425,-6.22017,292.796658,1312.073362,-744.84514,-10238.75589
-978.850818,-31.049865,274.860135,-1231.85927,-1094.349398,-1191.752224
-1019.720394,258.942618,174.766383,2807.49322,360.963414,86677.05598
-1242.60642,986.845266,674.286822,18552.37356,3122.62001,286685.1648
-659.888658,708.864849,255.343077,86224.41932,-27072.25605,286685.1648
-116.939196,536.729292,115.470828,53594.47261,-37729.27113,167011.4691
-15.071166,735.285276,48.374568,17429.37628,-48437.85241,77234.71144
36.964125,876.554514,-38.983131,-5145.161044,-13223.86602,33076.85379
78.200793,926.754345,66.606804,-10427.83196,6142.107616,-58264.07868
-1013.37786,-55.757196,275.349591,2257.453732,-9092.840286,9115.758598
-997.093251,-15.19353,265.22397,252.101432,-6669.228792,5414.45121
-1012.398948,-25.380333,276.817959,2142.862172,-45.836624,-1140.186022
-988.609347,-32.446854,275.961411,1896.490318,-865.166278,-2091.29597
-988.609347,-15.917517,252.600084,194.805652,-166.157762,-412.529616
-985.009806,-23.483691,260.217243,-4182.59194,-2188.698796,-979.757838
-1001.967417,-24.401421,260.890245,-4211.23983,1907.949474,733.385984
-920.167083,42.694839,155.60622,-6422.856938,-584.416956,62028.41143
-1096.758729,738.028269,424.796823,25565.37704,-34938.96664,248474.6091
-812.201247,1191.0096,575.834787,66755.31328,15664.66625,286685.1648
-181.537191,1037.962827,109.434204,52064.67529,-46094.45501,228558.596
-140.361705,389.056338,49.710375,41957.69969,-47899.27208,75601.78171
-5.669532,699.473412,-15.366879,1031.32404,-7414.073932,35322.84837
98.696763,778.897845,-46.110834,-5127.97231,24196.00789,-91358.12121
-1010.390139,-9.513801,219.174318,-11252.89119,-9763.200912,481.284552
-1019.965122,-41.420214,208.803969,-103.132404,-762.033874,-3088.242542
-984.397986,-26.960868,246.736809,-1988.163566,-2211.617108,-658.90147
-999.775062,-43.734933,239.547924,-3283.048194,-1713.143822,-3930.490508
-996.114339,-48.43575,236.550006,-4514.907464,-3546.608782,-4566.473666
-941.947875,-5.730714,230.268654,-4165.403206,-3357.532708,15802.17612
-1070.103771,274.921317,252.232992,-15441.21271,-16764.74523,138609.951
-937.736514,908.399745,416.863557,-16380.8635,-7797.955658,276091.1751
-429.681186,1135.068858,283.833495,83411.19652,-33689.91864,286685.1648
-15.795153,994.289076,237.528918,62927.95517,-90349.71548,266637.3714
-170.004384,572.235246,80.576694,10026.7615,-40851.89114,48535.25524
40.68603,733.205088,-37.759491,578.687378,-4979.003282,-3729.955278
-36.474669,688.613607,122.731092,-38972.58956,28710.91536,-93500.98338
-1011.603582,-15.366879,216.1764,-3815.898948,-1810.546648,17.188734
-1014.173226,-31.967595,249.795909,3386.180598,4251.346876,-5672.28222
-985.254534,-29.520315,258.269616,-2119.94386,183.346496,286.4789
-882.407592,156.952224,226.424385,2601.228412,-8279.24021,30326.65635
-1211.444388,366.296634,289.319481,29598.99995,6107.730148,142775.3542
-1052.901432,939.510792,506.230065,38640.27403,-11705.52785,286685.1648
-428.702274,1086.939018,404.178489,67351.18939,-25697.15733,283367.7391
-58.255461,603.580824,44.224389,34520.70745,-28877.07312,116820.3658
-42.154398,543.622464,2.069991,-9390.778342,-33128.42,85095.69246
100.9503,856.058544,-76.436712,-498.473286,-2853.329844,-19371.70322
55.26774,836.602668,38.677221,-11298.72782,28527.56886,-126955.9893
-979.034364,-31.111047,181.843101,5993.138588,-12685.28569,5695.200532
-986.66172,-22.565961,263.816784,3208.56368,-8330.806412,3317.425662
-983.062179,-46.539108,232.410024,-2194.428374,-3105.431276,-418.259194
-980.981991,22.871871,224.660304,796.411342,-6136.378038,15355.26904
-1005.444594,148.590684,172.747377,23852.23321,-9625.69104,14644.80137
-1105.364997,450.839961,340.804134,3655.470764,11768.55321,147238.6954
-1139.953221,1157.573637,668.056455,64102.51866,-5563.420238,286685.1648
-513.979785,995.686065,442.121526,67311.08234,-39276.25719,286685.1648
-91.987137,543.255372,-10.553895,26923.28702,-53199.13173,175496.9741
54.105282,619.753266,-40.502484,3603.904562,-34022.23416,49715.54831
121.813362,666.047646,-77.588973,3586.715828,18271.62424,-52729.30633
35.261226,682.148709,69.115266,-23502.72896,26785.77715,-121312.355
-997.337979,-47.334474,279.49977,6044.70479,1082.890242,68.754936
-990.383625,-32.813946,254.853621,-1014.135306,-561.498644,750.574718
-976.719645,-39.951846,266.019336,-492.743708,2274.642466,-1398.017032
-994.10553,-50.628105,255.404259,-1793.357914,-6228.051286,3684.118654
-922.430817,136.94571,179.824095,12278.48565,-12851.44345,63655.61158
-1234.499805,704.847231,364.654917,53875.22193,6508.800608,215930.6061
-1010.023047,1266.457203,594.740025,60217.86478,40720.11085,286685.1648
-139.443975,789.696468,287.667567,71717.12783,-53508.52894,267479.6194
45.203301,468.96003,-204.592608,10777.33622,-58029.16598,129511.3811
193.671621,507.147795,-156.462768,1226.129692,-12221.18987,-34320.17222
142.615242,462.556314,-181.476009,-9499.640324,16793.39312,-145382.3122
-747.419706,26.226684,686.727162,1793.357914,-2452.259384,2807.49322
-788.2281,33.119856,679.956354,1042.783196,-865.166278,-1380.828298
-777.368295,15.305697,665.068734,-2658.524192,3265.85946,1392.287454
-720.275292,111.259467,662.631651,1357.909986,9854.87416,39998.18402
-1176.917346,942.865605,1137.873033,70559.75307,41298.79822,159190.5952
-867.040713,765.600957,872.343153,146946.487,96440.2569,286685.1648
-242.719191,666.537102,93.394323,126526.271,60796.55216,286685.1648
-17.079975,446.088159,-254.486529,38794.97264,-9923.629096,145565.6587
318.900978,492.382539,-145.297053,4898.78919,-18071.08901,15607.37047
295.417287,716.186295,-163.478304,-3838.81726,11963.35886,-48346.17916
175.918644,670.932009,-198.73953,-29209.38864,12616.53076,-137469.765
-775.48185,-48.74166,671.717178,595.876112,5947.301964,3718.496122
-733.449816,-10.492713,690.449067,1546.98606,3082.512964,-3684.118654
-751.202793,-21.10779,711.862767,710.467672,4961.814548,-3008.02845
-728.636832,36.597033,672.634908,1140.186022,578.687378,12834.25472
-834.583662,495.431442,945.730962,62143.00299,60636.12397,180120.7436
-960.547203,884.79369,908.155017,127861.2626,131362.0348,279752.3754
-504.771894,929.446353,315.056709,127162.2541,67523.07673,286685.1648
15.795153,485.305821,-131.449527,37259.44573,-19033.65812,199744.5482
142.55406,563.07834,-73.438794,-6021.786478,-36686.48793,59306.86188
272.178324,821.286774,-113.462019,15498.50849,6027.516056,-31335.06208
289.625391,660.684024,-160.796493,-13831.20129,9024.08535,-57003.57152
-736.498719,-9.880893,699.901686,-2658.524192,-5259.752604,5529.04277
-758.891331,-19.945332,697.770513,4830.034254,3386.180598,-7946.924686
-766.936764,-14.58171,677.702817,-2309.019934,933.921214,-2555.391788
-745.533261,-11.950884,712.953846,-97.402826,5947.301964,1506.879014
-671.900724,54.96183,660.989934,11716.98701,9511.09948,21892.71754
-850.266648,504.160074,872.281971,98548.7416,22213.57391,171606.5907
-477.800829,1063.944783,668.913003,84322.19943,87771.40538,286685.1648
-361.728378,1155.809556,413.264016,123145.82,137687.4889,210401.5633
-237.5901,762.7356,102.602214,67024.60344,59117.7858,126938.8006
304.808724,451.512963,-201.482523,16363.67477,-5826.980826,50093.70045
238.874922,815.005422,-49.771557,-7631.797896,-15217.75917,-7368.237308
307.317186,896.805756,-17.447067,-12003.46591,-6451.504828,-27564.99976
-988.058709,22.688325,345.800664,10691.39255,2967.921404,14604.69432
-948.657501,24.952059,338.418036,-3386.180598,-4732.631428,-1461.04239
-959.211396,41.359032,378.318897,3208.56368,-464.095818,974.02826
-954.755307,67.646898,375.514722,2177.23964,-4314.372234,6159.29635
-921.390723,70.083981,371.058633,1208.940958,-3437.7468,13516.0745
-1040.644638,346.106574,377.401167,21216.62733,-22007.3091,119794.0168
-759.136059,911.326284,852.642549,59541.77458,-30292.27889,286685.1648
50.628105,1383.518763,534.842847,83073.15142,-68204.89651,286685.1648
-95.709042,540.267651,147.560787,49016.53979,-49297.28911,46804.92268
55.940742,660.011022,-35.801667,8812.090964,-35288.4709,12433.18426
95.280768,928.956897,8.596071,2257.453732,-2767.386174,-664.631048
161.765208,735.652368,-19.88415,527.121176,5672.28222,-54625.79665
-946.760859,42.032034,242.474463,-2755.927018,-13779.63509,-7316.671106
-987.395904,28.612782,333.788598,-1575.63395,-2521.01432,-2228.805842
-1002.579237,35.985213,295.172559,-3655.470764,-6543.178076,2870.518578
-907.237287,115.287282,264.122694,-3712.766544,-5529.04277,27685.3209
-736.376355,515.376774,152.312589,18787.28626,-9728.823444,207129.9743
-994.523607,1202.776938,883.080594,27840.0195,-18976.36234,285304.3365
-493.177905,1357.475625,453.348423,110873.0639,28.64789,257160.6494
-204.470244,655.249023,98.268489,58361.48151,-24998.14881,143789.4895
113.400837,507.514887,-143.594154,8645.933202,-32068.44807,72513.53917
179.334639,783.649647,-2.681811,-8136.00076,-15091.70845,4302.913078
156.646314,718.694757,-28.429236,7351.048574,23588.67263,-65999.00898
-847.707201,19.700604,566.433153,4761.279318,-303.667634,12461.83215
-862.217532,37.820673,541.246563,-246.371854,8932.412102,366.692992
-871.43562,50.872833,547.038459,120.321138,10003.84319,-2526.743898
-825.008679,77.283063,566.127243,2887.707312,14071.84357,3781.52148
-775.78776,185.921901,503.181162,14719.28588,-1357.909986,31982.5044
-973.364832,345.37239,617.367168,40846.16156,10805.98411,106627.4466
-1062.058338,937.247058,709.782579,54047.10927,42593.68285,212607.4508
-414.242928,856.548,386.853786,97299.6936,54081.48674,284290.2012
-252.538902,799.271451,182.93418,34744.16099,-30108.93239,145170.3178
92.537775,608.709915,3.844269,23766.28954,-18237.24677,26012.28412
61.182,712.46439,55.818378,-6205.132974,-23158.95428,16283.46068
83.625597,831.595941,22.443597,-2205.88753,8302.158522,-25628.40239
-823.244598,10.676259,702.461133,-7946.924686,-91621.6818,-762.033874
-881.867151,-27.02205,604.98801,-3770.062324,-17664.28897,7746.389456
-798.598449,41.90967,572.785884,-1804.81707,-3901.842618,13241.05476
-955.122399,530.631486,523.248858,28281.19701,14753.66335,118367.3519
-1111.646349,697.158693,874.484523,86648.40809,33432.08763,221316.4094
-587.663307,711.862767,519.832863,107452.5058,20763.99067,286685.1648
-195.925158,769.322862,182.811816,112889.8753,3139.808744,220502.8093
-10.003257,587.418579,-76.915971,24528.32342,-12037.84338,77761.83262
176.836374,735.835914,-61.182,-2435.07065,-21182.24987,11298.72782
133.101441,790.308288,-7.810902,-18701.34259,5162.349778,-66096.41181
-970.499475,-8.300358,268.089327,16420.97055,-13573.37028,6806.738664
-993.371346,16.957611,386.303148,8668.851514,-5494.665302,-177.616918
-981.899721,0.795366,271.199412,2102.755126,-21543.21328,-10691.39255
-713.749212,89.611236,50.628105,10170.00095,-123655.7524,73647.99561
-732.715632,619.080264,1191.376692,77034.17621,-52649.09224,185386.2258
-826.844139,962.260299,976.230189,112202.326,69425.29663,281591.57
-373.985172,1119.946707,526.848399,92498.30723,23027.17398,216377.5132
-86.439969,786.158109,81.127332,63890.52428,-12146.70536,158800.9838
22.749507,437.114799,-185.677173,37895.42889,-33208.63409,69425.29663
115.83792,454.561866,-23.055417,-3466.39469,-6984.355582,-77991.01574
-103.152852,730.768005,-20.618334,-21589.0499,34297.25391,-246664.0625
-1011.185505,48.925206,299.628648,16002.71135,10112.70517,-1942.326942
-999.530334,21.4137,297.375111,5941.572386,3598.174984,-17160.08611
-942.376149,3.599541,241.128459,-1145.9156,-6789.54993,-36056.23435
-1025.573472,-761.634324,295.050195,-94847.43421,-27438.94904,-263085.033
-1133.722854,-714.483396,266.080518,-63586.85664,70840.50239,-266350.8925
-709.537851,-968.725197,196.29225,-25290.35729,12398.80679,-280680.5671
-21.168972,-773.768754,54.0441,-28653.61958,15601.64089,-142597.7373
252.905994,-664.94637,-58.010733,-12083.68,-7901.088062,-51371.39635
109.984842,-838.427931,3.660723,4383.12717,2326.208668,3231.481992
-987.395904,-6.83199,328.904235,-26877.4504,17927.84956,-13246.78434
-968.174559,88.632324,300.424014,-68.754936,4646.687758,-9150.136066
-987.457086,-71.674713,266.75352,-23835.04448,-4062.270802,-55582.63618
-1112.808807,-588.519855,431.628813,-93965.0792,6061.893524,-278996.0711
-445.965795,-1317.156687,248.939361,-141829.9738,103057.9195,-286685.1648
-342.262305,-929.262807,-40.563666,-56138.40524,-229.18312,-194347.2858
-132.061347,-794.75418,-50.138649,-23903.79942,-16793.39312,-175227.684
314.455086,-922.675545,-206.295507,-18661.23555,15733.42119,-21990.12036
320.246982,-921.390723,-228.871665,3506.501736,1157.374756,25129.92911
307.378368,-937.797696,-153.780957,-5276.941338,-42060.8321,86115.55734
-967.746285,127.248363,195.384717,19171.16799,-7070.299252,16896.52552
-928.956897,169.209018,251.927082,-1976.70441,-10754.41791,-23353.75993
-926.448435,57.521277,202.094343,-23468.35149,-23285.00499,-79732.80745
-953.174772,-715.462308,342.017577,-138380.7679,-42014.99547,-286685.1648
-457.253874,-1450.798569,265.468698,-137779.1622,32670.05376,-286685.1648
-163.723032,-1115.24589,24.034329,-106839.441,-21778.12598,-281328.0094
3.538359,-937.981242,-15.795153,-49515.01308,-16283.46068,-146127.1573
574.488783,-626.462892,-323.479431,-30206.33522,-7236.457014,-12398.80679
468.837666,-684.901899,-291.511836,6038.975212,1266.236738,14553.12812
-969.459381,46.60029,195.619248,17922.11998,4148.214472,14438.53656
-980.319186,87.041592,265.407516,-3414.828488,-6709.335838,-17824.71716
-1012.949586,-23.544873,226.485567,-6709.335838,-13831.20129,-17939.30872
-986.294628,22.565961,248.816997,1100.078976,-1197.481802,498.473286
-917.668818,-74.050614,47.762748,-49956.19058,-15355.26904,-143571.7655
-633.84552,-1073.213856,24.829695,-169904.906,28086.39136,-286685.1648
-326.773062,-1502.283222,68.809356,-119759.6394,35059.28778,-255567.8267
-308.714175,-973.181286,160.307037,-71235.84327,26590.9715,-200420.6384
261.440883,-696.975147,-184.830822,-14129.13935,584.416956,-88241.23078
359.03637,-676.112085,-269.435331,-498.473286,-24677.29245,22139.08939
253.874709,-804.940983,-250.091622,-825.059232,-41745.70531,81875.66962
-1006.301142,31.172229,196.659342,10720.04044,-15200.57043,10009.57277
-980.563914,76.487697,152.434953,-2039.729768,2876.248156,-12880.09134
-1087.244928,-51.607017,0.183546,-56086.83904,-10989.3306,-161356.3756
-513.367965,-1352.53008,170.432658,-161167.2996,20116.54836,-286685.1648
-350.317935,-1024.298847,7.566174,-87078.12644,44662.06051,-180510.3549
-373.00626,-947.800953,119.070369,-36726.59498,25714.34606,-189752.1642
106.752393,-901.934847,-206.784963,-12817.06599,21016.0921,-149450.3126
338.183505,-958.966668,-255.587805,-31524.13816,-17480.94248,-58819.84775
343.485945,-735.774732,-288.952389,-10278.86293,-20809.8273,-10508.04605
256.627899,-968.664015,-247.593357,6142.107616,-15756.3395,35116.58356
-853.499097,-10.064439,508.42242,14186.43513,-2171.510062,19847.25819
-867.285441,-23.973147,460.363959,4016.434178,-6210.862552,-6371.290736
-888.576777,-96.810318,448.708788,-10708.58128,-11848.7673,-28418.70688
-892.716759,-453.531969,439.500897,-167097.4128,5614.98644,-273850.9101
-256.505535,-1479.900807,399.426687,-255779.8211,25530.99957,-286685.1648
140.606433,-1312.14996,293.102568,-139171.4496,36697.94709,-261635.4498
90.641133,-790.308288,99.247401,-58080.73219,60670.50144,-41212.85455
463.04577,-505.924155,-437.053617,-12834.25472,10553.88268,-10805.98411
224.782668,-846.361197,-212.576859,13894.22665,-15292.24368,23668.88672
401.068404,-848.553552,-223.191936,22843.82749,9344.941718,38462.65711
-972.141192,186.961995,253.273086,10800.25453,-6932.78938,-12347.24059
-870.150798,62.772732,228.565755,-19801.42157,-10158.54179,-55559.71787
-997.817238,-254.914803,406.493208,-60452.77748,-20729.6132,-178247.1716
-761.634324,-975.924279,395.6436,-106931.1142,-1621.470574,-286685.1648
-323.418249,-1087.122564,325.243512,-100365.0178,10473.66858,-286685.1648
184.096638,-1092.068109,193.426893,-104455.9365,-39734.62343,-245982.2427
347.024304,-674.949627,-174.644019,-22236.49222,13676.50269,-79916.15394
529.53021,-657.329211,-318.472704,-13441.58999,-22104.71192,-22803.72044
528.194403,-793.357191,-149.38605,3122.62001,11865.95604,19268.57081
425.836917,-897.662304,-91.558863,6652.040058,12564.96455,81445.95127
-958.477212,-12.562704,340.314678,-3472.124268,-66686.55834,8411.020504
-885.701223,49.04757,379.960614,-1312.073362,-27822.83077,-5970.220276
-911.326284,35.801667,473.660847,-24069.95718,-47142.96778,-53279.34582
-669.953097,-429.681186,642.196863,-158067.5979,28.64789,-286685.1648
173.726289,-1157.094378,141.391602,-195877.0831,65534.91316,-286685.1648
509.03424,-1229.921352,-171.289206,-141085.1287,-34686.86521,-269221.4111
473.905575,-833.186673,-193.793985,-76850.82971,-15034.41267,-152590.1213
684.473625,-625.422798,-364.287825,-7895.358484,-14163.51682,-38794.97264
501.233535,-509.829606,-260.461971,22906.85284,-21394.24425,32165.85089
509.829606,-718.511211,-189.582624,28086.39136,-7969.842998,56860.33207
-966.104568,104.916933,231.36993,9929.358674,-9241.809314,2824.681954
-976.536099,125.535267,286.576488,-1953.786098,-23949.63604,-6640.580902
-974.945367,93.628854,274.921317,-1266.236738,-14129.13935,-4068.00038
-925.296174,-8.718435,115.53201,-31633.00014,-36199.4738,-106363.886
-948.412773,-615.052449,393.930504,-98944.08248,-55857.65592,-286685.1648
-251.131716,-1145.072115,483.54174,-125632.4568,-43040.58994,-286685.1648
96.922485,-1111.768713,204.286698,-151209.293,-42994.75331,-277437.6259
68.442264,-763.337223,-18.721692,-65930.25405,13510.34492,-112167.9485
404.056125,-616.581999,-279.438588,-50328.61315,-37941.26552,-64967.68494
504.527166,-777.674205,-175.857462,16552.75084,6674.95837,32263.25372
-989.404713,30.070953,191.968722,15383.91693,-1025.594462,-1564.174794
-975.618369,77.650155,299.38392,-6285.347066,-6692.147104,-4830.034254
-1025.145198,-33.915222,181.108917,-12696.74485,-17257.48894,-76965.42127
-831.963033,-596.514303,349.216659,-72668.23777,-38187.63737,-286685.1648
-529.407846,-1143.79749,377.095257,-107229.0523,-9511.09948,-286685.1648
50.750469,-1110.606255,90.763497,-102158.3757,-34171.20319,-264677.8557
177.081102,-857.955186,126.636543,-57513.50396,5339.966696,-100307.722
324.754056,-736.865811,-186.533721,-23789.20786,-4497.71873,-79990.63846
549.964998,-816.16788,-79.730343,-12851.44345,-1575.63395,-31254.84799
681.179994,-806.715261,-226.669113,5116.513154,-7832.333126,23880.8811
332.687322,-893.573307,-123.710004,4486.259574,-39952.34739,70147.22345
-974.455911,34.15995,352.877382,25972.17707,9293.375516,16002.71135
-930.843342,47.21211,432.730089,3804.439792,-5127.97231,-14644.80137
-999.224424,-40.808394,391.738149,5809.792092,7832.333126,-48346.17916
-1059.121602,-588.703401,499.336893,-85267.5798,1392.287454,-234454.3318
-756.688779,-687.58371,197.026434,-35804.13292,73413.08291,-286685.1648
-425.775735,-931.08807,92.231865,-18443.51158,13046.24911,-282565.5982
-165.303567,-861.187635,-3.905451,-9115.758598,-3174.186212,-161281.8911
392.645682,-1098.838917,168.597198,-21359.86678,-53010.05566,-73361.51671
44.530299,-794.631816,126.514179,-2818.952376,-4744.090584,28980.20552
232.226478,-942.743241,96.320862,481.284552,-26155.52357,9430.885388
-873.627975,-252.905994,658.42029,-28728.10409,11590.93629,-113199.2725
-764.254953,-1361.136348,874.851615,-215013.8736,54642.98539,-286685.1648
-299.38392,-592.364124,150.059052,-122630.1579,111726.771,-208207.1349
44.775027,-621.272619,33.670494,-89077.74917,-14272.3788,-236889.4024
75.274254,-768.099222,-63.924993,-27100.90394,24344.97692,-110408.9681
632.254788,-760.165956,-449.014698,-4663.876492,-12891.5505,-35953.10195
374.352264,-929.742066,-57.154185,10983.60103,-6411.397782,46810.65226
406.013949,-722.590011,-216.971766,32034.0706,-21508.83581,103378.7759
-945.180324,129.012444,372.70035,-401.07046,-85.94367,-3632.552452
-917.974728,95.097222,381.97962,297.938056,2669.983348,-3191.374946
-958.660758,113.645565,422.849196,-1409.476188,-7436.992244,-3414.828488
-959.823216,61.243182,470.061306,-2223.076264,-1014.135306,-3397.639754
-867.163077,135.905616,458.222589,6468.693562,3472.124268,-1042.783196
-847.401291,-160.123491,383.131881,-36566.1668,-8829.279698,-111835.633
-890.891496,-671.839542,524.166588,-74060.52523,10141.35306,-263279.8387
-799.699725,-1036.616823,586.082772,-81881.3992,63575.39749,-286685.1648
84.971601,-1153.556019,93.690036,-140208.5032,-17062.68328,-286089.2887
34.649406,-896.805756,112.789017,-94658.35814,-57593.71806,-128468.5979
279.19386,-626.218164,-146.092419,-32767.45658,-53428.31485,-56636.87853
245.33982,-712.46439,-171.10566,4709.713116,-8118.812026,26230.00808
-940.663053,15.305697,397.835955,2859.059422,-19274.30039,5276.941338
-938.960154,21.4137,431.384085,-120.321138,-14541.66896,2755.927018
-921.818997,21.658428,416.863557,676.090204,-6056.163946,-1690.22551
-928.345077,28.735146,422.35974,-2641.335458,3254.400304,-21291.11185
-913.702185,-229.962744,373.61808,-40204.44883,12450.37299,-170535.1596
-752.120523,-910.041462,367.030818,-80735.4836,61827.8762,-286685.1648
-123.220548,-1332.095292,65.393361,-103739.7393,-20998.90337,-286685.1648
-113.880096,-1282.568463,292.735476,-76186.19867,-47624.25234,-189098.9923
279.255042,-845.137557,13.725162,-57358.80536,23170.41343,-114259.2445
466.461765,-795.366,-266.080518,-41430.57852,-34211.31024,-81262.60477
424.674459,-654.637203,-137.129256,962.569104,-20998.90337,11017.97849
-933.107076,-77.160699,415.83366,4102.377848,-2291.8312,-9711.63471
-933.708699,-52.585929,457.549587,263.560588,-1827.735382,-9493.910746
-913.579821,-53.248734,435.901356,-435.447928,217.723964,-2223.076264
-908.093835,-66.127545,351.786303,7832.333126,3002.298872,1059.97193
-978.728454,-74.356524,542.949462,7139.054188,-9677.257242,-15498.50849
-814.760694,-84.176235,414.793566,2555.391788,-5231.104714,-4612.31029
-818.237871,-237.834828,439.806807,-55937.87001,-30870.96626,-142592.0077
-705.6324,-1186.859421,529.2243,-113697.7458,12118.05747,-286192.4211
-422.420922,-1308.366873,429.19173,-142242.5034,-6354.102002,-245701.4934
-163.723032,-948.718683,478.473831,-102433.3955,9430.885388,-197074.5649
361.667196,-757.055871,-229.299939,-48712.87216,-20597.83291,-182802.1861
216.604674,-831.473577,24.829695,-16231.89447,-27668.13216,-20213.95118
439.562079,-629.695341,-202.81833,14375.5112,30756.3747,33964.93838
-938.715426,-65.882817,386.36433,-1678.766354,-23554.29516,3105.431276
-921.390723,-51.117561,464.381577,-269.290166,-4566.473666,-7505.74718
-907.543197,-82.350972,449.442972,6657.769636,-1082.890242,-6543.178076
-985.805172,-120.773268,392.227605,1208.940958,-8577.178266,-4583.6624
-892.716759,-75.4578,370.018539,-435.447928,-131.780294,-54459.63889
-676.662723,-446.394069,343.730673,-70823.31366,-48220.12845,-284393.3336
-329.393691,-1348.318719,815.127786,-99408.1783,-18558.10314,-270447.5408
-210.384504,-1099.144827,615.419541,-108191.6214,17297.59598,-184675.7581
64.781541,-934.075791,230.14629,-83004.39649,48752.9792,-146367.7996
307.735263,-891.748044,-70.389891,-90538.79156,19119.60179,-94526.57784
432.424179,-759.798864,-129.80781,-58327.10404,-12387.34764,-40794.59536
522.208764,-583.696674,-356.905197,-5460.287834,-2521.01432,39024.15576
368.499186,-682.026345,-280.11159,18162.76226,-37608.94999,19199.81588
-922.369635,25.920774,325.916514,23204.7909,-27301.43917,1913.679052
-970.438293,-79.363251,398.141865,16501.18464,-17773.15096,-21314.03016
-867.224259,-53.860554,203.552514,9614.231884,-15796.44655,1357.909986
-502.936434,134.620794,137.312802,-33082.58337,-206247.6193,-49474.90603
-619.508538,-774.747666,1007.035326,-219832.4487,8565.71911,-286685.1648
49.465647,-1340.150922,66.127545,-207611.2588,39253.33888,-286685.1648
144.624051,-1192.590135,-55.57365,-126795.5611,3071.053808,-181003.0986
232.950465,-888.209685,-40.68603,-50380.17935,7540.124648,-57169.72928
414.426474,-737.905905,-286.698852,-10095.51644,-1673.036776,859.4367
430.894629,-767.12031,-276.817959,1495.419858,2618.417146,13905.68581
294.254829,-749.010438,-43.979661,57559.34059,19434.72858,100886.4094
-941.091327,326.038878,428.947002,89627.78865,5775.414624,58607.85336
-956.835495,-80.576694,357.700563,-20345.73148,-19108.14263,-50489.04134
-967.685103,233.745831,85.583421,-29810.99433,-25788.83058,-133103.8265
-28.673964,-1000.93752,779.754393,-218113.5753,3288.777772,-286685.1648
83.747961,-1095.422922,-78.139611,-81062.06954,27805.64203,-286685.1648
203.001876,-898.212942,102.47985,-32876.31856,-67849.66268,-176740.2926
419.004927,-768.833406,-79.118523,-9963.736142,20700.96531,-31237.65926
619.141446,-663.365835,-135.293796,-5328.50754,-10685.66297,25697.15733
551.616912,-707.957316,-199.647063,13344.18716,-20975.98506,2790.304486
278.88795,-919.504278,4.517271,5987.40901,-16695.99029,30595.94652
255.587805,-992.57598,-6.464898,22958.41905,22477.13449,210584.9098
-909.256293,106.752393,488.660634,-9625.69104,-32286.17203,1426.664922
-922.553181,79.903692,405.830403,5259.752604,-2669.983348,-2755.927018
-937.430604,102.296304,453.776697,4337.290546,-13894.22665,-11814.38984
-952.073496,78.690249,494.75844,-27713.96879,-23617.32052,-112368.4837
-638.107866,-1020.638124,708.507954,-190153.2347,23176.14301,-286685.1648
75.4578,-1224.313002,238.446648,-216658.2625,-28063.47304,-286685.1648
211.363416,-1015.876125,-73.62234,-99792.06003,-47950.83828,-186818.6203
259.370892,-781.946748,-44.713845,-28137.95756,13980.17032,-24115.7938
526.358943,-595.229481,-313.843266,-6904.14149,-21692.18231,-2326.208668
382.407894,-902.057211,-96.25968,13779.63509,-39568.46567,46409.5818
419.127291,-1054.492164,-347.81967,79824.4807,3122.62001,199480.9876
-917.179362,48.007476,506.964249,5729.578,-744.84514,744.84514
-895.347585,65.821635,410.826933,2211.617108,-2125.673438,-3305.966506
-898.947126,-57.643641,357.211107,-11871.68562,-28636.43084,-54373.69522
-904.433112,-461.026764,468.65412,-95208.39763,-57845.81949,-272481.5409
-178.304742,-1525.950459,516.967506,-173314.0049,16799.1227,-286685.1648
64.169721,-1207.967211,231.859386,-158262.4035,-50878.65264,-225390.1394
97.228395,-913.885731,160.429401,-83835.1853,17423.6467,-70829.04324
484.449273,-643.848777,-364.349007,-24396.54312,34944.69622,-20185.30329
447.005889,-832.452489,-271.199412,-3689.848232,-3065.32423,-15051.60141
474.813108,-790.06356,-180.864189,103.132404,3953.40882,8548.530376
260.890245,-760.59423,-205.326792,27765.53499,-27587.91807,96405.87943
